{"resourceType":"MeasureReport","contained":[{"resourceType":"Observation","id":"01704061-953b-468d-ba0b-e33ba69abeca","extension":[{"url":"http://hl7.org/fhir/StructureDefinition/cqf-measureInfo","extension":[{"url":"measure","valueCanonical":"http://hl7.org/fhir/us/cqfmeasures/Measure/measure-EXM104-8.2.000"},{"url":"populationId","valueString":"sde-race"}]}],"status":"final","code":{"text":"sde-race"},"valueCodeableConcept":{"coding":[{"system":"urn:oid:2.16.840.1.113883.6.238","code":"2106-3","display":"White"}]}},{"resourceType":"Observation","id":"d36b92b2-ed5d-4acc-afdc-72d03c2716d6","extension":[{"url":"http://hl7.org/fhir/StructureDefinition/cqf-measureInfo","extension":[{"url":"measure","valueCanonical":"http://hl7.org/fhir/us/cqfmeasures/Measure/measure-EXM104-8.2.000"},{"url":"populationId","valueString":"sde-ethnicity"}]}],"status":"final","code":{"text":"sde-ethnicity"},"valueCodeableConcept":{"coding":[{"system":"urn:oid:2.16.840.1.113883.6.238","code":"2186-5","display":"Not Hispanic or Latino"}]}},{"resourceType":"Observation","id":"18285252-9826-484d-acbe-f922e9fb59e2","extension":[{"url":"http://hl7.org/fhir/StructureDefinition/cqf-measureInfo","extension":[{"url":"measure","valueCanonical":"http://hl7.org/fhir/us/cqfmeasures/Measure/measure-EXM104-8.2.000"},{"url":"populationId","valueString":"sde-sex"}]}],"status":"final","code":{"text":"sde-sex"},"valueCodeableConcept":{"coding":[{"code":"M"}]}}],"status":"complete","type":"individual","measure":"Measure/measure-EXM104-8.2.000","subject":{"reference":"Patient/81"},"period":{"start":"2019-01-01T00:00:00+00:00","end":"2019-12-31T00:00:00+00:00"},"group":[{"id":"group-1","population":[{"code":{"coding":[{"system":"http://terminology.hl7.org/CodeSystem/measure-population","code":"initial-population","display":"Initial Population"}]},"count":0},{"code":{"coding":[{"system":"http://terminology.hl7.org/CodeSystem/measure-population","code":"numerator","display":"Numerator"}]},"count":0},{"code":{"coding":[{"system":"http://terminology.hl7.org/CodeSystem/measure-population","code":"denominator","display":"Denominator"}]},"count":0},{"code":{"coding":[{"system":"http://terminology.hl7.org/CodeSystem/measure-population","code":"denominator-exclusion","display":"Denominator Exclusion"}]},"count":0},{"code":{"coding":[{"system":"http://terminology.hl7.org/CodeSystem/measure-population","code":"denominator-exception","display":"Denominator Exception"}]},"count":0}]}],"evaluatedResource":[{"reference":"#01704061-953b-468d-ba0b-e33ba69abeca"},{"reference":"#d36b92b2-ed5d-4acc-afdc-72d03c2716d6"},{"reference":"#18285252-9826-484d-acbe-f922e9fb59e2"},{"reference":"#Encounter/96"}]}