{"resourceType":"MeasureReport","contained":[{"resourceType":"Observation","id":"aa0829a6-9c55-4926-bde6-f61734dbd282","extension":[{"url":"http://hl7.org/fhir/StructureDefinition/cqf-measureInfo","extension":[{"url":"measure","valueCanonical":"http://hl7.org/fhir/us/cqfmeasures/Measure/measure-EXM104-8.2.000"},{"url":"populationId","valueString":"sde-race"}]}],"status":"final","code":{"text":"sde-race"},"valueCodeableConcept":{"coding":[{"system":"urn:oid:2.16.840.1.113883.6.238","code":"2054-5","display":"Black or African American"}]}},{"resourceType":"Observation","id":"b43ffca5-3674-4e15-9143-2bfdcdd99a5a","extension":[{"url":"http://hl7.org/fhir/StructureDefinition/cqf-measureInfo","extension":[{"url":"measure","valueCanonical":"http://hl7.org/fhir/us/cqfmeasures/Measure/measure-EXM104-8.2.000"},{"url":"populationId","valueString":"sde-ethnicity"}]}],"status":"final","code":{"text":"sde-ethnicity"},"valueCodeableConcept":{"coding":[{"system":"urn:oid:2.16.840.1.113883.6.238","code":"2186-5","display":"Not Hispanic or Latino"}]}},{"resourceType":"Observation","id":"7b026ad2-f961-4d1f-97f6-178712f03bbf","extension":[{"url":"http://hl7.org/fhir/StructureDefinition/cqf-measureInfo","extension":[{"url":"measure","valueCanonical":"http://hl7.org/fhir/us/cqfmeasures/Measure/measure-EXM104-8.2.000"},{"url":"populationId","valueString":"sde-sex"}]}],"status":"final","code":{"text":"sde-sex"},"valueCodeableConcept":{"coding":[{"code":"M"}]}}],"status":"complete","type":"individual","measure":"Measure/measure-EXM104-8.2.000","subject":{"reference":"Patient/175"},"period":{"start":"2019-01-01T00:00:00+00:00","end":"2019-12-31T00:00:00+00:00"},"group":[{"id":"group-1","population":[{"code":{"coding":[{"system":"http://terminology.hl7.org/CodeSystem/measure-population","code":"initial-population","display":"Initial Population"}]},"count":0},{"code":{"coding":[{"system":"http://terminology.hl7.org/CodeSystem/measure-population","code":"numerator","display":"Numerator"}]},"count":0},{"code":{"coding":[{"system":"http://terminology.hl7.org/CodeSystem/measure-population","code":"denominator","display":"Denominator"}]},"count":0},{"code":{"coding":[{"system":"http://terminology.hl7.org/CodeSystem/measure-population","code":"denominator-exclusion","display":"Denominator Exclusion"}]},"count":0},{"code":{"coding":[{"system":"http://terminology.hl7.org/CodeSystem/measure-population","code":"denominator-exception","display":"Denominator Exception"}]},"count":0}]}],"evaluatedResource":[{"reference":"#aa0829a6-9c55-4926-bde6-f61734dbd282"},{"reference":"#b43ffca5-3674-4e15-9143-2bfdcdd99a5a"},{"reference":"#7b026ad2-f961-4d1f-97f6-178712f03bbf"},{"reference":"#Encounter/190"}]}