{"resourceType":"MeasureReport","contained":[{"resourceType":"Observation","id":"cda63eb1-7316-4c82-89c9-9e875e93cc2d","extension":[{"url":"http://hl7.org/fhir/StructureDefinition/cqf-measureInfo","extension":[{"url":"measure","valueCanonical":"http://hl7.org/fhir/us/cqfmeasures/Measure/measure-EXM104-8.2.000"},{"url":"populationId","valueString":"sde-race"}]}],"status":"final","code":{"text":"sde-race"},"valueCodeableConcept":{"coding":[{"system":"urn:oid:2.16.840.1.113883.6.238","code":"2106-3","display":"White"}]}},{"resourceType":"Observation","id":"59a7f103-accf-4909-827e-cc8987580097","extension":[{"url":"http://hl7.org/fhir/StructureDefinition/cqf-measureInfo","extension":[{"url":"measure","valueCanonical":"http://hl7.org/fhir/us/cqfmeasures/Measure/measure-EXM104-8.2.000"},{"url":"populationId","valueString":"sde-ethnicity"}]}],"status":"final","code":{"text":"sde-ethnicity"},"valueCodeableConcept":{"coding":[{"system":"urn:oid:2.16.840.1.113883.6.238","code":"2186-5","display":"Not Hispanic or Latino"}]}},{"resourceType":"Observation","id":"74e91e1a-a8ef-4bc5-9e2b-a96256d18b85","extension":[{"url":"http://hl7.org/fhir/StructureDefinition/cqf-measureInfo","extension":[{"url":"measure","valueCanonical":"http://hl7.org/fhir/us/cqfmeasures/Measure/measure-EXM104-8.2.000"},{"url":"populationId","valueString":"sde-sex"}]}],"status":"final","code":{"text":"sde-sex"},"valueCodeableConcept":{"coding":[{"code":"F"}]}}],"status":"complete","type":"individual","measure":"Measure/measure-EXM104-8.2.000","subject":{"reference":"Patient/299"},"period":{"start":"2019-01-01T00:00:00+00:00","end":"2019-12-31T00:00:00+00:00"},"group":[{"id":"group-1","population":[{"code":{"coding":[{"system":"http://terminology.hl7.org/CodeSystem/measure-population","code":"initial-population","display":"Initial Population"}]},"count":0},{"code":{"coding":[{"system":"http://terminology.hl7.org/CodeSystem/measure-population","code":"numerator","display":"Numerator"}]},"count":0},{"code":{"coding":[{"system":"http://terminology.hl7.org/CodeSystem/measure-population","code":"denominator","display":"Denominator"}]},"count":0},{"code":{"coding":[{"system":"http://terminology.hl7.org/CodeSystem/measure-population","code":"denominator-exclusion","display":"Denominator Exclusion"}]},"count":0},{"code":{"coding":[{"system":"http://terminology.hl7.org/CodeSystem/measure-population","code":"denominator-exception","display":"Denominator Exception"}]},"count":0}]}],"evaluatedResource":[{"reference":"#cda63eb1-7316-4c82-89c9-9e875e93cc2d"},{"reference":"#59a7f103-accf-4909-827e-cc8987580097"},{"reference":"#74e91e1a-a8ef-4bc5-9e2b-a96256d18b85"}]}