{"resourceType":"MeasureReport","contained":[{"resourceType":"Observation","id":"3b380ff9-9409-4c12-aa86-c4fa948f5eb7","extension":[{"url":"http://hl7.org/fhir/StructureDefinition/cqf-measureInfo","extension":[{"url":"measure","valueCanonical":"http://hl7.org/fhir/us/cqfmeasures/Measure/measure-EXM104-8.2.000"},{"url":"populationId","valueString":"sde-race"}]}],"status":"final","code":{"text":"sde-race"},"valueCodeableConcept":{"coding":[{"system":"urn:oid:2.16.840.1.113883.6.238","code":"2106-3","display":"White"}]}},{"resourceType":"Observation","id":"f013dbec-5588-423d-93a3-df66180b6da4","extension":[{"url":"http://hl7.org/fhir/StructureDefinition/cqf-measureInfo","extension":[{"url":"measure","valueCanonical":"http://hl7.org/fhir/us/cqfmeasures/Measure/measure-EXM104-8.2.000"},{"url":"populationId","valueString":"sde-ethnicity"}]}],"status":"final","code":{"text":"sde-ethnicity"},"valueCodeableConcept":{"coding":[{"system":"urn:oid:2.16.840.1.113883.6.238","code":"2186-5","display":"Not Hispanic or Latino"}]}},{"resourceType":"Observation","id":"2bb5717c-8b17-488f-b930-923e52295e1d","extension":[{"url":"http://hl7.org/fhir/StructureDefinition/cqf-measureInfo","extension":[{"url":"measure","valueCanonical":"http://hl7.org/fhir/us/cqfmeasures/Measure/measure-EXM104-8.2.000"},{"url":"populationId","valueString":"sde-sex"}]}],"status":"final","code":{"text":"sde-sex"},"valueCodeableConcept":{"coding":[{"code":"F"}]}}],"status":"complete","type":"individual","measure":"Measure/measure-EXM104-8.2.000","subject":{"reference":"Patient/491"},"period":{"start":"2019-01-01T00:00:00+00:00","end":"2019-12-31T00:00:00+00:00"},"group":[{"id":"group-1","population":[{"code":{"coding":[{"system":"http://terminology.hl7.org/CodeSystem/measure-population","code":"initial-population","display":"Initial Population"}]},"count":0},{"code":{"coding":[{"system":"http://terminology.hl7.org/CodeSystem/measure-population","code":"numerator","display":"Numerator"}]},"count":0},{"code":{"coding":[{"system":"http://terminology.hl7.org/CodeSystem/measure-population","code":"denominator","display":"Denominator"}]},"count":0},{"code":{"coding":[{"system":"http://terminology.hl7.org/CodeSystem/measure-population","code":"denominator-exclusion","display":"Denominator Exclusion"}]},"count":0},{"code":{"coding":[{"system":"http://terminology.hl7.org/CodeSystem/measure-population","code":"denominator-exception","display":"Denominator Exception"}]},"count":0}]}],"evaluatedResource":[{"reference":"#3b380ff9-9409-4c12-aa86-c4fa948f5eb7"},{"reference":"#f013dbec-5588-423d-93a3-df66180b6da4"},{"reference":"#2bb5717c-8b17-488f-b930-923e52295e1d"},{"reference":"#Encounter/512"}]}