{"resourceType":"MeasureReport","contained":[{"resourceType":"Observation","id":"0fda4522-1888-4efe-a9eb-7a72bd029b3f","extension":[{"url":"http://hl7.org/fhir/StructureDefinition/cqf-measureInfo","extension":[{"url":"measure","valueCanonical":"http://hl7.org/fhir/us/cqfmeasures/Measure/measure-EXM104-8.2.000"},{"url":"populationId","valueString":"sde-race"}]}],"status":"final","code":{"text":"sde-race"},"valueCodeableConcept":{"coding":[{"system":"urn:oid:2.16.840.1.113883.6.238","code":"2106-3","display":"White"}]}},{"resourceType":"Observation","id":"8099bb44-1ba5-45f8-80c7-ec53d9370fde","extension":[{"url":"http://hl7.org/fhir/StructureDefinition/cqf-measureInfo","extension":[{"url":"measure","valueCanonical":"http://hl7.org/fhir/us/cqfmeasures/Measure/measure-EXM104-8.2.000"},{"url":"populationId","valueString":"sde-ethnicity"}]}],"status":"final","code":{"text":"sde-ethnicity"},"valueCodeableConcept":{"coding":[{"system":"urn:oid:2.16.840.1.113883.6.238","code":"2186-5","display":"Not Hispanic or Latino"}]}},{"resourceType":"Observation","id":"5863e395-5fe2-4952-b9e3-5c4324210f10","extension":[{"url":"http://hl7.org/fhir/StructureDefinition/cqf-measureInfo","extension":[{"url":"measure","valueCanonical":"http://hl7.org/fhir/us/cqfmeasures/Measure/measure-EXM104-8.2.000"},{"url":"populationId","valueString":"sde-sex"}]}],"status":"final","code":{"text":"sde-sex"},"valueCodeableConcept":{"coding":[{"code":"F"}]}}],"status":"complete","type":"individual","measure":"Measure/measure-EXM104-8.2.000","subject":{"reference":"Patient/893"},"period":{"start":"2019-01-01T00:00:00+00:00","end":"2019-12-31T00:00:00+00:00"},"group":[{"id":"group-1","population":[{"code":{"coding":[{"system":"http://terminology.hl7.org/CodeSystem/measure-population","code":"initial-population","display":"Initial Population"}]},"count":2},{"code":{"coding":[{"system":"http://terminology.hl7.org/CodeSystem/measure-population","code":"numerator","display":"Numerator"}]},"count":1},{"code":{"coding":[{"system":"http://terminology.hl7.org/CodeSystem/measure-population","code":"denominator","display":"Denominator"}]},"count":1},{"code":{"coding":[{"system":"http://terminology.hl7.org/CodeSystem/measure-population","code":"denominator-exclusion","display":"Denominator Exclusion"}]},"count":0},{"code":{"coding":[{"system":"http://terminology.hl7.org/CodeSystem/measure-population","code":"denominator-exception","display":"Denominator Exception"}]},"count":0}],"measureScore":{"value":1}}],"evaluatedResource":[{"reference":"#0fda4522-1888-4efe-a9eb-7a72bd029b3f"},{"reference":"#8099bb44-1ba5-45f8-80c7-ec53d9370fde"},{"reference":"#5863e395-5fe2-4952-b9e3-5c4324210f10"},{"reference":"#Encounter/906"},{"reference":"#Patient/893"},{"reference":"#Condition/907"},{"reference":"#Encounter/898"},{"reference":"#MedicationRequest/900"},{"reference":"#Condition/899"}]}