{"id":"c30b28f2-ea02-4bee-918f-0512734c39be","resourceType":"MeasureReport","period":{},"status":"complete","type":"individual","measure":"http://hl7.org/fhir/us/cqfmeasures/Measure/EXM104","text":{"status":"generated","div":"<div><h2>Population Group: group-1</h2><pre style=\"tab-size: 2; border-bottom-width: 4px; line-height: 1.4\">\n<code>\n<span data-ref-id=\"41\" style=\"background-color:#ccebe0;color:#20744c;border-bottom-color:#20744c;border-bottom-style:solid\"><span>define &quot;SDE Ethnicity&quot;:\r\n  </span><span data-ref-id=\"40\" style=\"background-color:#ccebe0;color:#20744c;border-bottom-color:#20744c;border-bottom-style:solid\"><span data-ref-id=\"39\" style=\"background-color:#ccebe0;color:#20744c;border-bottom-color:#20744c;border-bottom-style:solid\"><span>SDE</span></span><span>.</span><span data-ref-id=\"40\" style=\"background-color:#ccebe0;color:#20744c;border-bottom-color:#20744c;border-bottom-style:solid\"><span>&quot;SDE Ethnicity&quot;</span></span></span></span></code>\n</pre><pre style=\"tab-size: 2; border-bottom-width: 4px; line-height: 1.4\">\n<code>\n<span data-ref-id=\"44\" style=\"background-color:#edd8d0;color:#a63b12;border-bottom-color:#a63b12;border-bottom-style:double\"><span>define &quot;SDE Payer&quot;:\r\n\t</span><span data-ref-id=\"43\" style=\"background-color:#edd8d0;color:#a63b12;border-bottom-color:#a63b12;border-bottom-style:double\"><span data-ref-id=\"42\" style=\"background-color:#edd8d0;color:#a63b12;border-bottom-color:#a63b12;border-bottom-style:double\"><span>SDE</span></span><span>.</span><span data-ref-id=\"43\" style=\"background-color:#edd8d0;color:#a63b12;border-bottom-color:#a63b12;border-bottom-style:double\"><span>&quot;SDE Payer&quot;</span></span></span></span></code>\n</pre><pre style=\"tab-size: 2; border-bottom-width: 4px; line-height: 1.4\">\n<code>\n<span data-ref-id=\"47\" style=\"background-color:#ccebe0;color:#20744c;border-bottom-color:#20744c;border-bottom-style:solid\"><span>define &quot;SDE Race&quot;:\r\n  </span><span data-ref-id=\"46\" style=\"background-color:#ccebe0;color:#20744c;border-bottom-color:#20744c;border-bottom-style:solid\"><span data-ref-id=\"45\" style=\"background-color:#ccebe0;color:#20744c;border-bottom-color:#20744c;border-bottom-style:solid\"><span>SDE</span></span><span>.</span><span data-ref-id=\"46\" style=\"background-color:#ccebe0;color:#20744c;border-bottom-color:#20744c;border-bottom-style:solid\"><span>&quot;SDE Race&quot;</span></span></span></span></code>\n</pre><pre style=\"tab-size: 2; border-bottom-width: 4px; line-height: 1.4\">\n<code>\n<span data-ref-id=\"50\" style=\"background-color:#ccebe0;color:#20744c;border-bottom-color:#20744c;border-bottom-style:solid\"><span>define &quot;SDE Sex&quot;:\r\n\t</span><span data-ref-id=\"49\" style=\"background-color:#ccebe0;color:#20744c;border-bottom-color:#20744c;border-bottom-style:solid\"><span data-ref-id=\"48\" style=\"background-color:#ccebe0;color:#20744c;border-bottom-color:#20744c;border-bottom-style:solid\"><span>SDE</span></span><span>.</span><span data-ref-id=\"49\" style=\"background-color:#ccebe0;color:#20744c;border-bottom-color:#20744c;border-bottom-style:solid\"><span>&quot;SDE Sex&quot;</span></span></span></span></code>\n</pre><pre style=\"tab-size: 2; border-bottom-width: 4px; line-height: 1.4\">\n<code>\n<span data-ref-id=\"53\" style=\"background-color:#edd8d0;color:#a63b12;border-bottom-color:#a63b12;border-bottom-style:double\"><span>define &quot;Initial Population&quot;:\r\n\t</span><span data-ref-id=\"52\" style=\"background-color:#edd8d0;color:#a63b12;border-bottom-color:#a63b12;border-bottom-style:double\"><span data-ref-id=\"51\" style=\"background-color:#edd8d0;color:#a63b12;border-bottom-color:#a63b12;border-bottom-style:double\"><span>TJC</span></span><span>.</span><span data-ref-id=\"52\" style=\"background-color:#edd8d0;color:#a63b12;border-bottom-color:#a63b12;border-bottom-style:double\"><span>&quot;Encounter with Principal Diagnosis and Age&quot;</span></span></span></span></code>\n</pre><pre style=\"tab-size: 2; border-bottom-width: 4px; line-height: 1.4\">\n<code>\n<span data-ref-id=\"34\" style=\"background-color:#ccebe0;color:#20744c;border-bottom-color:#20744c;border-bottom-style:solid\"><span>define &quot;SDE Ethnicity&quot;:\r\n  </span><span data-ref-id=\"33\" style=\"background-color:#ccebe0;color:#20744c;border-bottom-color:#20744c;border-bottom-style:solid\"><span><span data-ref-id=\"18\" style=\"background-color:#ccebe0;color:#20744c;border-bottom-color:#20744c;border-bottom-style:solid\"><span data-ref-id=\"17\" style=\"background-color:#ccebe0;color:#20744c;border-bottom-color:#20744c;border-bottom-style:solid\"><span>(</span><span data-ref-id=\"17\" style=\"background-color:#ccebe0;color:#20744c;border-bottom-color:#20744c;border-bottom-style:solid\"><span>flatten </span><span data-ref-id=\"16\" style=\"background-color:#ccebe0;color:#20744c;border-bottom-color:#20744c;border-bottom-style:solid\"><span>(\r\n    </span><span data-ref-id=\"16\" style=\"background-color:#ccebe0;color:#20744c;border-bottom-color:#20744c;border-bottom-style:solid\"><span><span data-ref-id=\"8\" style=\"background-color:#ccebe0;color:#20744c;border-bottom-color:#20744c;border-bottom-style:solid\"><span data-ref-id=\"7\" style=\"background-color:#ccebe0;color:#20744c;border-bottom-color:#20744c;border-bottom-style:solid\"><span><span>Patient.extension</span></span></span><span> Extension</span></span></span><span>\r\n      </span><span data-ref-id=\"12\" style=\"background-color:#ccebe0;color:#20744c;border-bottom-color:#20744c;border-bottom-style:solid\"><span>where </span><span data-ref-id=\"12\" style=\"background-color:#ccebe0;color:#20744c;border-bottom-color:#20744c;border-bottom-style:solid\"><span data-ref-id=\"10\" style=\"background-color:#ccebe0;color:#20744c;border-bottom-color:#20744c;border-bottom-style:solid\"><span data-ref-id=\"9\" style=\"background-color:#ccebe0;color:#20744c;border-bottom-color:#20744c;border-bottom-style:solid\"><span>Extension</span></span><span>.</span><span data-ref-id=\"10\" style=\"background-color:#ccebe0;color:#20744c;border-bottom-color:#20744c;border-bottom-style:solid\"><span>url</span></span></span><span> &#x3D; </span><span data-ref-id=\"11\" style=\"background-color:#ccebe0;color:#20744c;border-bottom-color:#20744c;border-bottom-style:solid\"><span>&#x27;http://hl7.org/fhir/us/core/StructureDefinition/us-core-ethnicity&#x27;</span></span></span></span><span>\r\n        </span><span data-ref-id=\"15\" style=\"background-color:#ccebe0;color:#20744c;border-bottom-color:#20744c;border-bottom-style:solid\"><span>return </span><span data-ref-id=\"14\" style=\"background-color:#ccebe0;color:#20744c;border-bottom-color:#20744c;border-bottom-style:solid\"><span data-ref-id=\"13\" style=\"background-color:#ccebe0;color:#20744c;border-bottom-color:#20744c;border-bottom-style:solid\"><span>Extension</span></span><span>.</span><span data-ref-id=\"14\" style=\"background-color:#ccebe0;color:#20744c;border-bottom-color:#20744c;border-bottom-style:solid\"><span>extension</span></span></span></span></span><span>\r\n  )</span></span></span><span>)</span></span><span> E</span></span></span><span>\r\n    </span><span data-ref-id=\"27\" style=\"background-color:#ccebe0;color:#20744c;border-bottom-color:#20744c;border-bottom-style:solid\"><span>where </span><span data-ref-id=\"27\" style=\"background-color:#ccebe0;color:#20744c;border-bottom-color:#20744c;border-bottom-style:solid\"><span data-ref-id=\"22\" style=\"background-color:#ccebe0;color:#20744c;border-bottom-color:#20744c;border-bottom-style:solid\"><span data-ref-id=\"20\" style=\"background-color:#ccebe0;color:#20744c;border-bottom-color:#20744c;border-bottom-style:solid\"><span data-ref-id=\"19\" style=\"background-color:#ccebe0;color:#20744c;border-bottom-color:#20744c;border-bottom-style:solid\"><span>E</span></span><span>.</span><span data-ref-id=\"20\" style=\"background-color:#ccebe0;color:#20744c;border-bottom-color:#20744c;border-bottom-style:solid\"><span>url</span></span></span><span> &#x3D; </span><span data-ref-id=\"21\" style=\"background-color:#ccebe0;color:#20744c;border-bottom-color:#20744c;border-bottom-style:solid\"><span>&#x27;ombCategory&#x27;</span></span></span><span>\r\n      or </span><span data-ref-id=\"26\" style=\"background-color:#edd8d0;color:#a63b12;border-bottom-color:#a63b12;border-bottom-style:double\"><span data-ref-id=\"24\" style=\"background-color:#ccebe0;color:#20744c;border-bottom-color:#20744c;border-bottom-style:solid\"><span data-ref-id=\"23\" style=\"background-color:#ccebe0;color:#20744c;border-bottom-color:#20744c;border-bottom-style:solid\"><span>E</span></span><span>.</span><span data-ref-id=\"24\" style=\"background-color:#ccebe0;color:#20744c;border-bottom-color:#20744c;border-bottom-style:solid\"><span>url</span></span></span><span> &#x3D; </span><span data-ref-id=\"25\" style=\"background-color:#ccebe0;color:#20744c;border-bottom-color:#20744c;border-bottom-style:solid\"><span>&#x27;detailed&#x27;</span></span></span></span></span><span>\r\n    </span><span data-ref-id=\"32\" style=\"background-color:#ccebe0;color:#20744c;border-bottom-color:#20744c;border-bottom-style:solid\"><span>return </span><span data-ref-id=\"31\" style=\"background-color:#ccebe0;color:#20744c;border-bottom-color:#20744c;border-bottom-style:solid\"><span data-ref-id=\"29\" style=\"background-color:#ccebe0;color:#20744c;border-bottom-color:#20744c;border-bottom-style:solid\"><span data-ref-id=\"28\" style=\"background-color:#ccebe0;color:#20744c;border-bottom-color:#20744c;border-bottom-style:solid\"><span>E</span></span><span>.</span><span data-ref-id=\"29\" style=\"background-color:#ccebe0;color:#20744c;border-bottom-color:#20744c;border-bottom-style:solid\"><span>value</span></span></span><span> as </span><span data-ref-id=\"30\" style=\"background-color:#ccebe0;color:#20744c;border-bottom-color:#20744c;border-bottom-style:solid\"><span>Coding</span></span></span></span></span></span></code>\n</pre><pre style=\"tab-size: 2; border-bottom-width: 4px; line-height: 1.4\">\n<code>\n<span data-ref-id=\"44\" style=\"background-color:#edd8d0;color:#a63b12;border-bottom-color:#a63b12;border-bottom-style:double\"><span>define &quot;SDE Payer&quot;:\r\n    </span><span data-ref-id=\"43\" style=\"background-color:#edd8d0;color:#a63b12;border-bottom-color:#a63b12;border-bottom-style:double\"><span><span data-ref-id=\"36\" style=\"background-color:#edd8d0;color:#a63b12;border-bottom-color:#a63b12;border-bottom-style:double\"><span data-ref-id=\"35\" style=\"background-color:#edd8d0;color:#a63b12;border-bottom-color:#a63b12;border-bottom-style:double\"><span data-ref-id=\"35\" style=\"background-color:#edd8d0;color:#a63b12;border-bottom-color:#a63b12;border-bottom-style:double\"><span>[Coverage: </span><span><span>type</span></span><span> in </span><span><span>&quot;Payer&quot;</span></span><span>]</span></span></span><span> Payer</span></span></span><span>\r\n      </span><span data-ref-id=\"42\" style=\"background-color:#edd8d0;color:#a63b12;border-bottom-color:#a63b12;border-bottom-style:double\"><span>return </span><span data-ref-id=\"41\" style=\"background-color:#edd8d0;color:#a63b12;border-bottom-color:#a63b12;border-bottom-style:double\"><span>{\r\n        </span><span><span>code: </span><span data-ref-id=\"38\" style=\"background-color:#edd8d0;color:#a63b12;border-bottom-color:#a63b12;border-bottom-style:double\"><span data-ref-id=\"37\" style=\"background-color:#edd8d0;color:#a63b12;border-bottom-color:#a63b12;border-bottom-style:double\"><span>Payer</span></span><span>.</span><span data-ref-id=\"38\" style=\"background-color:#edd8d0;color:#a63b12;border-bottom-color:#a63b12;border-bottom-style:double\"><span>type</span></span></span></span><span>,\r\n        </span><span><span>period: </span><span data-ref-id=\"40\" style=\"background-color:#edd8d0;color:#a63b12;border-bottom-color:#a63b12;border-bottom-style:double\"><span data-ref-id=\"39\" style=\"background-color:#edd8d0;color:#a63b12;border-bottom-color:#a63b12;border-bottom-style:double\"><span>Payer</span></span><span>.</span><span data-ref-id=\"40\" style=\"background-color:#edd8d0;color:#a63b12;border-bottom-color:#a63b12;border-bottom-style:double\"><span>period</span></span></span></span><span>\r\n      }</span></span></span></span></span></code>\n</pre><pre style=\"tab-size: 2; border-bottom-width: 4px; line-height: 1.4\">\n<code>\n<span data-ref-id=\"72\" style=\"background-color:#ccebe0;color:#20744c;border-bottom-color:#20744c;border-bottom-style:solid\"><span>define &quot;SDE Race&quot;:\r\n  </span><span data-ref-id=\"71\" style=\"background-color:#ccebe0;color:#20744c;border-bottom-color:#20744c;border-bottom-style:solid\"><span><span data-ref-id=\"56\" style=\"background-color:#ccebe0;color:#20744c;border-bottom-color:#20744c;border-bottom-style:solid\"><span data-ref-id=\"55\" style=\"background-color:#ccebe0;color:#20744c;border-bottom-color:#20744c;border-bottom-style:solid\"><span>(</span><span data-ref-id=\"55\" style=\"background-color:#ccebe0;color:#20744c;border-bottom-color:#20744c;border-bottom-style:solid\"><span>flatten </span><span data-ref-id=\"54\" style=\"background-color:#ccebe0;color:#20744c;border-bottom-color:#20744c;border-bottom-style:solid\"><span>(\r\n    </span><span data-ref-id=\"54\" style=\"background-color:#ccebe0;color:#20744c;border-bottom-color:#20744c;border-bottom-style:solid\"><span><span data-ref-id=\"46\" style=\"background-color:#ccebe0;color:#20744c;border-bottom-color:#20744c;border-bottom-style:solid\"><span data-ref-id=\"45\" style=\"background-color:#ccebe0;color:#20744c;border-bottom-color:#20744c;border-bottom-style:solid\"><span><span>Patient.extension</span></span></span><span> Extension</span></span></span><span>\r\n      </span><span data-ref-id=\"50\" style=\"background-color:#ccebe0;color:#20744c;border-bottom-color:#20744c;border-bottom-style:solid\"><span>where </span><span data-ref-id=\"50\" style=\"background-color:#ccebe0;color:#20744c;border-bottom-color:#20744c;border-bottom-style:solid\"><span data-ref-id=\"48\" style=\"background-color:#ccebe0;color:#20744c;border-bottom-color:#20744c;border-bottom-style:solid\"><span data-ref-id=\"47\" style=\"background-color:#ccebe0;color:#20744c;border-bottom-color:#20744c;border-bottom-style:solid\"><span>Extension</span></span><span>.</span><span data-ref-id=\"48\" style=\"background-color:#ccebe0;color:#20744c;border-bottom-color:#20744c;border-bottom-style:solid\"><span>url</span></span></span><span> &#x3D; </span><span data-ref-id=\"49\" style=\"background-color:#ccebe0;color:#20744c;border-bottom-color:#20744c;border-bottom-style:solid\"><span>&#x27;http://hl7.org/fhir/us/core/StructureDefinition/us-core-race&#x27;</span></span></span></span><span>\r\n        </span><span data-ref-id=\"53\" style=\"background-color:#ccebe0;color:#20744c;border-bottom-color:#20744c;border-bottom-style:solid\"><span>return </span><span data-ref-id=\"52\" style=\"background-color:#ccebe0;color:#20744c;border-bottom-color:#20744c;border-bottom-style:solid\"><span data-ref-id=\"51\" style=\"background-color:#ccebe0;color:#20744c;border-bottom-color:#20744c;border-bottom-style:solid\"><span>Extension</span></span><span>.</span><span data-ref-id=\"52\" style=\"background-color:#ccebe0;color:#20744c;border-bottom-color:#20744c;border-bottom-style:solid\"><span>extension</span></span></span></span></span><span>\r\n  )</span></span></span><span>)</span></span><span> E</span></span></span><span>\r\n    </span><span data-ref-id=\"65\" style=\"background-color:#ccebe0;color:#20744c;border-bottom-color:#20744c;border-bottom-style:solid\"><span>where </span><span data-ref-id=\"65\" style=\"background-color:#ccebe0;color:#20744c;border-bottom-color:#20744c;border-bottom-style:solid\"><span data-ref-id=\"60\" style=\"background-color:#ccebe0;color:#20744c;border-bottom-color:#20744c;border-bottom-style:solid\"><span data-ref-id=\"58\" style=\"background-color:#ccebe0;color:#20744c;border-bottom-color:#20744c;border-bottom-style:solid\"><span data-ref-id=\"57\" style=\"background-color:#ccebe0;color:#20744c;border-bottom-color:#20744c;border-bottom-style:solid\"><span>E</span></span><span>.</span><span data-ref-id=\"58\" style=\"background-color:#ccebe0;color:#20744c;border-bottom-color:#20744c;border-bottom-style:solid\"><span>url</span></span></span><span> &#x3D; </span><span data-ref-id=\"59\" style=\"background-color:#ccebe0;color:#20744c;border-bottom-color:#20744c;border-bottom-style:solid\"><span>&#x27;ombCategory&#x27;</span></span></span><span>\r\n      or </span><span data-ref-id=\"64\" style=\"background-color:#edd8d0;color:#a63b12;border-bottom-color:#a63b12;border-bottom-style:double\"><span data-ref-id=\"62\" style=\"background-color:#ccebe0;color:#20744c;border-bottom-color:#20744c;border-bottom-style:solid\"><span data-ref-id=\"61\" style=\"background-color:#ccebe0;color:#20744c;border-bottom-color:#20744c;border-bottom-style:solid\"><span>E</span></span><span>.</span><span data-ref-id=\"62\" style=\"background-color:#ccebe0;color:#20744c;border-bottom-color:#20744c;border-bottom-style:solid\"><span>url</span></span></span><span> &#x3D; </span><span data-ref-id=\"63\" style=\"background-color:#ccebe0;color:#20744c;border-bottom-color:#20744c;border-bottom-style:solid\"><span>&#x27;detailed&#x27;</span></span></span></span></span><span>\r\n    </span><span data-ref-id=\"70\" style=\"background-color:#ccebe0;color:#20744c;border-bottom-color:#20744c;border-bottom-style:solid\"><span>return </span><span data-ref-id=\"69\" style=\"background-color:#ccebe0;color:#20744c;border-bottom-color:#20744c;border-bottom-style:solid\"><span data-ref-id=\"67\" style=\"background-color:#ccebe0;color:#20744c;border-bottom-color:#20744c;border-bottom-style:solid\"><span data-ref-id=\"66\" style=\"background-color:#ccebe0;color:#20744c;border-bottom-color:#20744c;border-bottom-style:solid\"><span>E</span></span><span>.</span><span data-ref-id=\"67\" style=\"background-color:#ccebe0;color:#20744c;border-bottom-color:#20744c;border-bottom-style:solid\"><span>value</span></span></span><span> as </span><span data-ref-id=\"68\" style=\"background-color:#ccebe0;color:#20744c;border-bottom-color:#20744c;border-bottom-style:solid\"><span>Coding</span></span></span></span></span></span></code>\n</pre><pre style=\"tab-size: 2; border-bottom-width: 4px; line-height: 1.4\">\n<code>\n<span data-ref-id=\"93\" style=\"background-color:#ccebe0;color:#20744c;border-bottom-color:#20744c;border-bottom-style:solid\"><span>define &quot;SDE Sex&quot;:\r\n  </span><span data-ref-id=\"92\" style=\"background-color:#ccebe0;color:#20744c;border-bottom-color:#20744c;border-bottom-style:solid\"><span>case\r\n    </span><span data-ref-id=\"81\" style=\"background-color:#edd8d0;color:#a63b12;border-bottom-color:#a63b12;border-bottom-style:double\"><span>when </span><span data-ref-id=\"76\" style=\"background-color:#ccebe0;color:#20744c;border-bottom-color:#20744c;border-bottom-style:solid\"><span data-ref-id=\"74\" style=\"background-color:#ccebe0;color:#20744c;border-bottom-color:#20744c;border-bottom-style:solid\"><span data-ref-id=\"73\" style=\"background-color:#ccebe0;color:#20744c;border-bottom-color:#20744c;border-bottom-style:solid\"><span>Patient</span></span><span>.</span><span data-ref-id=\"74\" style=\"background-color:#ccebe0;color:#20744c;border-bottom-color:#20744c;border-bottom-style:solid\"><span>gender</span></span></span><span> &#x3D; </span><span data-ref-id=\"75\" style=\"background-color:#ccebe0;color:#20744c;border-bottom-color:#20744c;border-bottom-style:solid\"><span>&#x27;male&#x27;</span></span></span><span> then </span><span data-ref-id=\"80\" style=\"background-color:#ccebe0;color:#20744c;border-bottom-color:#20744c;border-bottom-style:solid\"><span>Code { </span><span><span>code: </span><span data-ref-id=\"77\" style=\"background-color:#ccebe0;color:#20744c;border-bottom-color:#20744c;border-bottom-style:solid\"><span>&#x27;M&#x27;</span></span></span><span>, </span><span><span>system: </span><span data-ref-id=\"78\" style=\"background-color:#ccebe0;color:#20744c;border-bottom-color:#20744c;border-bottom-style:solid\"><span>&#x27;http://hl7.org/fhir/v3/AdministrativeGender&#x27;</span></span></span><span>, </span><span><span>display: </span><span data-ref-id=\"79\" style=\"background-color:#ccebe0;color:#20744c;border-bottom-color:#20744c;border-bottom-style:solid\"><span>&#x27;Male&#x27;</span></span></span><span> }</span></span></span><span>\r\n    </span><span data-ref-id=\"90\" style=\"background-color:#edd8d0;color:#a63b12;border-bottom-color:#a63b12;border-bottom-style:double\"><span>when </span><span data-ref-id=\"85\" style=\"background-color:#edd8d0;color:#a63b12;border-bottom-color:#a63b12;border-bottom-style:double\"><span data-ref-id=\"83\" style=\"background-color:#edd8d0;color:#a63b12;border-bottom-color:#a63b12;border-bottom-style:double\"><span data-ref-id=\"82\" style=\"background-color:#edd8d0;color:#a63b12;border-bottom-color:#a63b12;border-bottom-style:double\"><span>Patient</span></span><span>.</span><span data-ref-id=\"83\" style=\"background-color:#edd8d0;color:#a63b12;border-bottom-color:#a63b12;border-bottom-style:double\"><span>gender</span></span></span><span> &#x3D; </span><span data-ref-id=\"84\" style=\"background-color:#edd8d0;color:#a63b12;border-bottom-color:#a63b12;border-bottom-style:double\"><span>&#x27;female&#x27;</span></span></span><span> then </span><span data-ref-id=\"89\" style=\"background-color:#edd8d0;color:#a63b12;border-bottom-color:#a63b12;border-bottom-style:double\"><span>Code { </span><span><span>code: </span><span data-ref-id=\"86\" style=\"background-color:#edd8d0;color:#a63b12;border-bottom-color:#a63b12;border-bottom-style:double\"><span>&#x27;F&#x27;</span></span></span><span>, </span><span><span>system: </span><span data-ref-id=\"87\" style=\"background-color:#edd8d0;color:#a63b12;border-bottom-color:#a63b12;border-bottom-style:double\"><span>&#x27;http://hl7.org/fhir/v3/AdministrativeGender&#x27;</span></span></span><span>, </span><span><span>display: </span><span data-ref-id=\"88\" style=\"background-color:#edd8d0;color:#a63b12;border-bottom-color:#a63b12;border-bottom-style:double\"><span>&#x27;Female&#x27;</span></span></span><span> }</span></span></span><span data-ref-id=\"91\" style=\"background-color:#edd8d0;color:#a63b12;border-bottom-color:#a63b12;border-bottom-style:double\">\r\n    else null\r\n  end</span></span></span></code>\n</pre><pre style=\"tab-size: 2; border-bottom-width: 4px; line-height: 1.4\">\n<code>\n<span data-ref-id=\"87\" style=\"\"><span>define function &quot;LengthInDays&quot;(Value </span><span data-ref-id=\"81\" style=\"\"><span>Interval&lt;</span><span data-ref-id=\"80\" style=\"\"><span>DateTime</span></span><span>&gt;</span></span><span>):\r\n\t</span><span data-ref-id=\"86\" style=\"\"><span data-ref-id=\"86\" style=\"\"><span>difference in days between </span><span data-ref-id=\"83\" style=\"\"><span>start of </span><span data-ref-id=\"82\" style=\"\"><span>Value</span></span></span><span> and </span><span data-ref-id=\"85\" style=\"\"><span>end of </span><span data-ref-id=\"84\" style=\"\"><span>Value</span></span></span></span></span></span></code>\n</pre><pre style=\"tab-size: 2; border-bottom-width: 4px; line-height: 1.4\">\n<code>\n<span data-ref-id=\"113\" style=\"\"><span>define function &quot;ToDate&quot;(Value </span><span data-ref-id=\"99\" style=\"\"><span>DateTime</span></span><span>):\r\n\t</span><span data-ref-id=\"112\" style=\"\"><span data-ref-id=\"112\" style=\"\"><span>DateTime(</span><span data-ref-id=\"101\" style=\"\"><span>year from </span><span data-ref-id=\"100\" style=\"\"><span>Value</span></span></span><span>, </span><span data-ref-id=\"103\" style=\"\"><span>month from </span><span data-ref-id=\"102\" style=\"\"><span>Value</span></span></span><span>, </span><span data-ref-id=\"105\" style=\"\"><span>day from </span><span data-ref-id=\"104\" style=\"\"><span>Value</span></span></span><span data-ref-id=\"106\" style=\"\">, 0, 0, 0, 0, </span><span data-ref-id=\"111\" style=\"\"><span>timezoneoffset from </span><span data-ref-id=\"110\" style=\"\"><span>Value</span></span></span><span>)</span></span></span></span></code>\n</pre><pre style=\"tab-size: 2; border-bottom-width: 4px; line-height: 1.4\">\n<code>\n<span data-ref-id=\"147\" style=\"\"><span>define function &quot;CalendarAgeInYearsAt&quot;(BirthDateTime </span><span data-ref-id=\"140\" style=\"\"><span>DateTime</span></span><span>, AsOf </span><span data-ref-id=\"141\" style=\"\"><span>DateTime</span></span><span>):\r\n\t</span><span data-ref-id=\"146\" style=\"\"><span data-ref-id=\"146\" style=\"\"><span>years between </span><span data-ref-id=\"143\" style=\"\"><span>ToDate(</span><span data-ref-id=\"142\" style=\"\"><span>BirthDateTime</span></span><span>)</span></span><span>and </span><span data-ref-id=\"145\" style=\"\"><span>ToDate(</span><span data-ref-id=\"144\" style=\"\"><span>AsOf</span></span><span>)</span></span></span></span></span></code>\n</pre><pre style=\"tab-size: 2; border-bottom-width: 4px; line-height: 1.4\">\n<code>\n<span data-ref-id=\"579\" style=\"\"><span>define function &quot;GetId&quot;(uri </span><span data-ref-id=\"574\" style=\"\"><span>String</span></span><span>):\r\n\t</span><span data-ref-id=\"578\" style=\"\"><span data-ref-id=\"578\" style=\"\"><span>Last(</span><span data-ref-id=\"577\" style=\"\"><span>Split(</span><span data-ref-id=\"575\" style=\"\"><span>uri</span></span><span>, </span><span data-ref-id=\"576\" style=\"\"><span>&#x27;/&#x27;</span></span><span>)</span></span><span>)</span></span></span></span></code>\n</pre><pre style=\"tab-size: 2; border-bottom-width: 4px; line-height: 1.4\">\n<code>\n<span data-ref-id=\"622\" style=\"\"><span>define function &quot;PrincipalDiagnosis&quot;(Encounter </span><span data-ref-id=\"597\" style=\"\"><span>Encounter</span></span><span>):\r\n\t</span><span data-ref-id=\"621\" style=\"\"><span data-ref-id=\"621\" style=\"\"><span><span data-ref-id=\"608\" style=\"\"><span data-ref-id=\"607\" style=\"\"><span>(</span><span data-ref-id=\"607\" style=\"\"><span>singleton from </span><span data-ref-id=\"606\" style=\"\"><span>(</span><span data-ref-id=\"606\" style=\"\"><span><span data-ref-id=\"599\" style=\"\"><span data-ref-id=\"598\" style=\"\"><span><span>Encounter.diagnosis</span></span></span><span> D</span></span></span><span> </span><span data-ref-id=\"605\" style=\"\"><span>where </span><span data-ref-id=\"605\" style=\"\"><span data-ref-id=\"603\" style=\"\"><span data-ref-id=\"600\" style=\"\"><span>FHIRHelpers</span></span><span>.</span><span data-ref-id=\"603\" style=\"\"><span>ToInteger(</span><span data-ref-id=\"602\" style=\"\"><span data-ref-id=\"601\" style=\"\"><span>D</span></span><span>.</span><span data-ref-id=\"602\" style=\"\"><span>rank</span></span></span><span>)</span></span></span><span data-ref-id=\"604\" style=\"\"> &#x3D; 1</span></span></span></span><span>)</span></span></span><span>)</span></span><span> PD</span></span></span><span>\r\n\t\t</span><span data-ref-id=\"620\" style=\"\"><span>return </span><span data-ref-id=\"619\" style=\"\"><span>singleton from </span><span data-ref-id=\"618\" style=\"\"><span>(</span><span data-ref-id=\"618\" style=\"\"><span><span data-ref-id=\"610\" style=\"\"><span data-ref-id=\"609\" style=\"\"><span data-ref-id=\"609\" style=\"\"><span>[Condition]</span></span></span><span> C</span></span></span><span> </span><span data-ref-id=\"617\" style=\"\"><span>where </span><span data-ref-id=\"617\" style=\"\"><span data-ref-id=\"612\" style=\"\"><span data-ref-id=\"611\" style=\"\"><span>C</span></span><span>.</span><span data-ref-id=\"612\" style=\"\"><span>id</span></span></span><span> &#x3D; </span><span data-ref-id=\"616\" style=\"\"><span>&quot;GetId&quot;(</span><span data-ref-id=\"615\" style=\"\"><span data-ref-id=\"614\" style=\"\"><span data-ref-id=\"613\" style=\"\"><span>PD</span></span><span>.</span><span data-ref-id=\"614\" style=\"\"><span>condition</span></span></span><span>.</span><span data-ref-id=\"615\" style=\"\"><span>reference</span></span></span><span>)</span></span></span></span></span><span>)</span></span></span></span></span></span></span></code>\n</pre><pre style=\"tab-size: 2; border-bottom-width: 4px; line-height: 1.4\">\n<code>\n<span data-ref-id=\"58\" style=\"background-color:#edd8d0;color:#a63b12;border-bottom-color:#a63b12;border-bottom-style:double\"><span>define &quot;Non Elective Inpatient Encounter&quot;:\r\n\t</span><span data-ref-id=\"57\" style=\"background-color:#edd8d0;color:#a63b12;border-bottom-color:#a63b12;border-bottom-style:double\"><span><span data-ref-id=\"45\" style=\"background-color:#edd8d0;color:#a63b12;border-bottom-color:#a63b12;border-bottom-style:double\"><span data-ref-id=\"44\" style=\"background-color:#edd8d0;color:#a63b12;border-bottom-color:#a63b12;border-bottom-style:double\"><span data-ref-id=\"44\" style=\"background-color:#edd8d0;color:#a63b12;border-bottom-color:#a63b12;border-bottom-style:double\"><span>[&quot;Encounter&quot;: </span><span><span>&quot;Non-Elective Inpatient Encounter&quot;</span></span><span>]</span></span></span><span> NonElectiveEncounter</span></span></span><span>\r\n\t\t</span><span data-ref-id=\"56\" style=\"background-color:#edd8d0;color:#a63b12;border-bottom-color:#a63b12;border-bottom-style:double\"><span>where </span><span data-ref-id=\"56\" style=\"background-color:#edd8d0;color:#a63b12;border-bottom-color:#a63b12;border-bottom-style:double\"><span data-ref-id=\"51\" style=\"background-color:#edd8d0;color:#a63b12;border-bottom-color:#a63b12;border-bottom-style:double\"><span data-ref-id=\"49\" style=\"background-color:#edd8d0;color:#a63b12;border-bottom-color:#a63b12;border-bottom-style:double\"><span data-ref-id=\"46\" style=\"background-color:#edd8d0;color:#a63b12;border-bottom-color:#a63b12;border-bottom-style:double\"><span>Global</span></span><span>.</span><span data-ref-id=\"49\" style=\"background-color:#edd8d0;color:#a63b12;border-bottom-color:#a63b12;border-bottom-style:double\"><span>&quot;LengthInDays&quot;(</span><span data-ref-id=\"48\" style=\"background-color:#edd8d0;color:#a63b12;border-bottom-color:#a63b12;border-bottom-style:double\"><span data-ref-id=\"47\" style=\"background-color:#edd8d0;color:#a63b12;border-bottom-color:#a63b12;border-bottom-style:double\"><span>NonElectiveEncounter</span></span><span>.</span><span data-ref-id=\"48\" style=\"background-color:#edd8d0;color:#a63b12;border-bottom-color:#a63b12;border-bottom-style:double\"><span>period</span></span></span><span>)</span></span></span><span data-ref-id=\"50\" style=\"background-color:#edd8d0;color:#a63b12;border-bottom-color:#a63b12;border-bottom-style:double\"> &lt;&#x3D; 120</span></span><span>\r\n\t\t\tand </span><span data-ref-id=\"55\" style=\"background-color:#edd8d0;color:#a63b12;border-bottom-color:#a63b12;border-bottom-style:double\"><span data-ref-id=\"53\" style=\"background-color:#edd8d0;color:#a63b12;border-bottom-color:#a63b12;border-bottom-style:double\"><span data-ref-id=\"52\" style=\"background-color:#edd8d0;color:#a63b12;border-bottom-color:#a63b12;border-bottom-style:double\"><span>NonElectiveEncounter</span></span><span>.</span><span data-ref-id=\"53\" style=\"background-color:#edd8d0;color:#a63b12;border-bottom-color:#a63b12;border-bottom-style:double\"><span>period</span></span></span><span data-ref-id=\"55\" style=\"background-color:#edd8d0;color:#a63b12;border-bottom-color:#a63b12;border-bottom-style:double\"> ends during </span><span data-ref-id=\"54\" style=\"background-color:#edd8d0;color:#a63b12;border-bottom-color:#a63b12;border-bottom-style:double\"><span>&quot;Measurement Period&quot;</span></span></span></span></span></span></span></code>\n</pre><pre style=\"tab-size: 2; border-bottom-width: 4px; line-height: 1.4\">\n<code>\n<span data-ref-id=\"75\" style=\"background-color:#edd8d0;color:#a63b12;border-bottom-color:#a63b12;border-bottom-style:double\"><span>define &quot;All Stroke Encounter&quot;:\r\n\t</span><span data-ref-id=\"74\" style=\"background-color:#edd8d0;color:#a63b12;border-bottom-color:#a63b12;border-bottom-style:double\"><span><span data-ref-id=\"60\" style=\"background-color:#edd8d0;color:#a63b12;border-bottom-color:#a63b12;border-bottom-style:double\"><span data-ref-id=\"59\" style=\"background-color:#edd8d0;color:#a63b12;border-bottom-color:#a63b12;border-bottom-style:double\"><span><span>&quot;Non Elective Inpatient Encounter&quot;</span></span></span><span> NonElectiveEncounter</span></span></span><span>\r\n    </span><span data-ref-id=\"73\" style=\"background-color:#edd8d0;color:#a63b12;border-bottom-color:#a63b12;border-bottom-style:double\"><span>where </span><span data-ref-id=\"73\" style=\"background-color:#edd8d0;color:#a63b12;border-bottom-color:#a63b12;border-bottom-style:double\"><span data-ref-id=\"66\" style=\"background-color:#edd8d0;color:#a63b12;border-bottom-color:#a63b12;border-bottom-style:double\"><span data-ref-id=\"64\" style=\"background-color:#edd8d0;color:#a63b12;border-bottom-color:#a63b12;border-bottom-style:double\"><span data-ref-id=\"63\" style=\"background-color:#edd8d0;color:#a63b12;border-bottom-color:#a63b12;border-bottom-style:double\"><span data-ref-id=\"61\" style=\"background-color:#edd8d0;color:#a63b12;border-bottom-color:#a63b12;border-bottom-style:double\"><span>Global</span></span><span>.</span><span data-ref-id=\"63\" style=\"background-color:#edd8d0;color:#a63b12;border-bottom-color:#a63b12;border-bottom-style:double\"><span>PrincipalDiagnosis(</span><span data-ref-id=\"62\" style=\"background-color:#edd8d0;color:#a63b12;border-bottom-color:#a63b12;border-bottom-style:double\"><span>NonElectiveEncounter</span></span><span>)</span></span></span><span>.</span><span data-ref-id=\"64\" style=\"background-color:#edd8d0;color:#a63b12;border-bottom-color:#a63b12;border-bottom-style:double\"><span>code</span></span></span><span> in </span><span data-ref-id=\"65\" style=\"background-color:#edd8d0;color:#a63b12;border-bottom-color:#a63b12;border-bottom-style:double\"><span>&quot;Hemorrhagic Stroke&quot;</span></span></span><span>\r\n      or </span><span data-ref-id=\"72\" style=\"background-color:#edd8d0;color:#a63b12;border-bottom-color:#a63b12;border-bottom-style:double\"><span data-ref-id=\"70\" style=\"background-color:#edd8d0;color:#a63b12;border-bottom-color:#a63b12;border-bottom-style:double\"><span data-ref-id=\"69\" style=\"background-color:#edd8d0;color:#a63b12;border-bottom-color:#a63b12;border-bottom-style:double\"><span data-ref-id=\"67\" style=\"background-color:#edd8d0;color:#a63b12;border-bottom-color:#a63b12;border-bottom-style:double\"><span>Global</span></span><span>.</span><span data-ref-id=\"69\" style=\"background-color:#edd8d0;color:#a63b12;border-bottom-color:#a63b12;border-bottom-style:double\"><span>PrincipalDiagnosis(</span><span data-ref-id=\"68\" style=\"background-color:#edd8d0;color:#a63b12;border-bottom-color:#a63b12;border-bottom-style:double\"><span>NonElectiveEncounter</span></span><span>)</span></span></span><span>.</span><span data-ref-id=\"70\" style=\"background-color:#edd8d0;color:#a63b12;border-bottom-color:#a63b12;border-bottom-style:double\"><span>code</span></span></span><span> in </span><span data-ref-id=\"71\" style=\"background-color:#edd8d0;color:#a63b12;border-bottom-color:#a63b12;border-bottom-style:double\"><span>&quot;Ischemic Stroke&quot;</span></span></span></span></span></span></span></code>\n</pre><pre style=\"tab-size: 2; border-bottom-width: 4px; line-height: 1.4\">\n<code>\n<span data-ref-id=\"95\" style=\"background-color:#edd8d0;color:#a63b12;border-bottom-color:#a63b12;border-bottom-style:double\"><span>define &quot;Encounter with Principal Diagnosis and Age&quot;:\r\n\t</span><span data-ref-id=\"94\" style=\"background-color:#edd8d0;color:#a63b12;border-bottom-color:#a63b12;border-bottom-style:double\"><span><span data-ref-id=\"77\" style=\"background-color:#edd8d0;color:#a63b12;border-bottom-color:#a63b12;border-bottom-style:double\"><span data-ref-id=\"76\" style=\"background-color:#edd8d0;color:#a63b12;border-bottom-color:#a63b12;border-bottom-style:double\"><span><span>&quot;All Stroke Encounter&quot;</span></span></span><span> AllStrokeEncounter</span></span></span><span>\r\n\t\t</span><span data-ref-id=\"93\" style=\"background-color:#edd8d0;color:#a63b12;border-bottom-color:#a63b12;border-bottom-style:double\"><span>with </span><span data-ref-id=\"79\" style=\"background-color:#edd8d0;color:#a63b12;border-bottom-color:#a63b12;border-bottom-style:double\"><span data-ref-id=\"78\" style=\"background-color:#edd8d0;color:#a63b12;border-bottom-color:#a63b12;border-bottom-style:double\"><span data-ref-id=\"78\" style=\"background-color:#edd8d0;color:#a63b12;border-bottom-color:#a63b12;border-bottom-style:double\"><span>[&quot;Patient&quot;]</span></span></span><span> BirthDate</span></span><span>\r\n\t\t\tsuch that </span><span data-ref-id=\"92\" style=\"background-color:#edd8d0;color:#a63b12;border-bottom-color:#a63b12;border-bottom-style:double\"><span data-ref-id=\"90\" style=\"background-color:#edd8d0;color:#a63b12;border-bottom-color:#a63b12;border-bottom-style:double\"><span data-ref-id=\"80\" style=\"background-color:#edd8d0;color:#a63b12;border-bottom-color:#a63b12;border-bottom-style:double\"><span>Global</span></span><span>.</span><span data-ref-id=\"90\" style=\"background-color:#edd8d0;color:#a63b12;border-bottom-color:#a63b12;border-bottom-style:double\"><span>&quot;CalendarAgeInYearsAt&quot;(</span><span data-ref-id=\"84\" style=\"background-color:#edd8d0;color:#a63b12;border-bottom-color:#a63b12;border-bottom-style:double\"><span data-ref-id=\"81\" style=\"background-color:#edd8d0;color:#a63b12;border-bottom-color:#a63b12;border-bottom-style:double\"><span>FHIRHelpers</span></span><span>.</span><span data-ref-id=\"84\" style=\"background-color:#edd8d0;color:#a63b12;border-bottom-color:#a63b12;border-bottom-style:double\"><span>ToDate(</span><span data-ref-id=\"83\" style=\"background-color:#edd8d0;color:#a63b12;border-bottom-color:#a63b12;border-bottom-style:double\"><span data-ref-id=\"82\" style=\"background-color:#edd8d0;color:#a63b12;border-bottom-color:#a63b12;border-bottom-style:double\"><span>BirthDate</span></span><span>.</span><span data-ref-id=\"83\" style=\"background-color:#edd8d0;color:#a63b12;border-bottom-color:#a63b12;border-bottom-style:double\"><span>birthDate</span></span></span><span>)</span></span></span><span>, </span><span data-ref-id=\"89\" style=\"background-color:#edd8d0;color:#a63b12;border-bottom-color:#a63b12;border-bottom-style:double\"><span>start of </span><span data-ref-id=\"88\" style=\"background-color:#edd8d0;color:#a63b12;border-bottom-color:#a63b12;border-bottom-style:double\"><span data-ref-id=\"85\" style=\"background-color:#edd8d0;color:#a63b12;border-bottom-color:#a63b12;border-bottom-style:double\"><span>FHIRHelpers</span></span><span>.</span><span data-ref-id=\"88\" style=\"background-color:#edd8d0;color:#a63b12;border-bottom-color:#a63b12;border-bottom-style:double\"><span>ToInterval(</span><span data-ref-id=\"87\" style=\"background-color:#edd8d0;color:#a63b12;border-bottom-color:#a63b12;border-bottom-style:double\"><span data-ref-id=\"86\" style=\"background-color:#edd8d0;color:#a63b12;border-bottom-color:#a63b12;border-bottom-style:double\"><span>AllStrokeEncounter</span></span><span>.</span><span data-ref-id=\"87\" style=\"background-color:#edd8d0;color:#a63b12;border-bottom-color:#a63b12;border-bottom-style:double\"><span>period</span></span></span><span>)</span></span></span></span><span>)</span></span></span><span data-ref-id=\"91\" style=\"background-color:#edd8d0;color:#a63b12;border-bottom-color:#a63b12;border-bottom-style:double\"> &gt;&#x3D; 18</span></span></span></span></span></code>\n</pre><pre style=\"tab-size: 2; border-bottom-width: 4px; line-height: 1.4\">\n<code>\n<span data-ref-id=\"14\" style=\"\"><span>define function ToInterval(period </span><span data-ref-id=\"2\" style=\"\"><span>FHIR.Period</span></span><span>):\r\n    </span><span data-ref-id=\"13\" style=\"\"><span data-ref-id=\"13\" style=\"\"><span>if </span><span data-ref-id=\"4\" style=\"\"><span data-ref-id=\"3\" style=\"\"><span>period</span></span><span> is null</span></span><span data-ref-id=\"5\" style=\"\"> then\r\n        null\r\n    else\r\n        </span><span data-ref-id=\"12\" style=\"\"><span>Interval[</span><span data-ref-id=\"8\" style=\"\"><span data-ref-id=\"7\" style=\"\"><span data-ref-id=\"6\" style=\"\"><span>period</span></span><span>.</span><span data-ref-id=\"7\" style=\"\"><span>&quot;start&quot;</span></span></span><span>.</span><span data-ref-id=\"8\" style=\"\"><span>value</span></span></span><span>, </span><span data-ref-id=\"11\" style=\"\"><span data-ref-id=\"10\" style=\"\"><span data-ref-id=\"9\" style=\"\"><span>period</span></span><span>.</span><span data-ref-id=\"10\" style=\"\"><span>&quot;end&quot;</span></span></span><span>.</span><span data-ref-id=\"11\" style=\"\"><span>value</span></span></span><span>]</span></span></span></span></span></code>\n</pre><pre style=\"tab-size: 2; border-bottom-width: 4px; line-height: 1.4\">\n<code>\n<span data-ref-id=\"59\" style=\"\"><span>define function ToCode(coding </span><span data-ref-id=\"41\" style=\"\"><span>FHIR.Coding</span></span><span>):\r\n    </span><span data-ref-id=\"58\" style=\"\"><span data-ref-id=\"58\" style=\"\"><span>if </span><span data-ref-id=\"43\" style=\"\"><span data-ref-id=\"42\" style=\"\"><span>coding</span></span><span> is null</span></span><span data-ref-id=\"44\" style=\"\"> then\r\n        null\r\n    else\r\n        </span><span data-ref-id=\"57\" style=\"\"><span>System.Code {\r\n          </span><span><span>code: </span><span data-ref-id=\"47\" style=\"\"><span data-ref-id=\"46\" style=\"\"><span data-ref-id=\"45\" style=\"\"><span>coding</span></span><span>.</span><span data-ref-id=\"46\" style=\"\"><span>code</span></span></span><span>.</span><span data-ref-id=\"47\" style=\"\"><span>value</span></span></span></span><span>,\r\n          </span><span><span>system: </span><span data-ref-id=\"50\" style=\"\"><span data-ref-id=\"49\" style=\"\"><span data-ref-id=\"48\" style=\"\"><span>coding</span></span><span>.</span><span data-ref-id=\"49\" style=\"\"><span>system</span></span></span><span>.</span><span data-ref-id=\"50\" style=\"\"><span>value</span></span></span></span><span>,\r\n          </span><span><span>version: </span><span data-ref-id=\"53\" style=\"\"><span data-ref-id=\"52\" style=\"\"><span data-ref-id=\"51\" style=\"\"><span>coding</span></span><span>.</span><span data-ref-id=\"52\" style=\"\"><span>version</span></span></span><span>.</span><span data-ref-id=\"53\" style=\"\"><span>value</span></span></span></span><span>,\r\n          </span><span><span>display: </span><span data-ref-id=\"56\" style=\"\"><span data-ref-id=\"55\" style=\"\"><span data-ref-id=\"54\" style=\"\"><span>coding</span></span><span>.</span><span data-ref-id=\"55\" style=\"\"><span>display</span></span></span><span>.</span><span data-ref-id=\"56\" style=\"\"><span>value</span></span></span></span><span>\r\n        }</span></span></span></span></span></code>\n</pre><pre style=\"tab-size: 2; border-bottom-width: 4px; line-height: 1.4\">\n<code>\n<span data-ref-id=\"75\" style=\"\"><span>define function ToConcept(concept </span><span data-ref-id=\"60\" style=\"\"><span>FHIR.CodeableConcept</span></span><span>):\r\n    </span><span data-ref-id=\"74\" style=\"\"><span data-ref-id=\"74\" style=\"\"><span>if </span><span data-ref-id=\"62\" style=\"\"><span data-ref-id=\"61\" style=\"\"><span>concept</span></span><span> is null</span></span><span data-ref-id=\"63\" style=\"\"> then\r\n        null\r\n    else\r\n        </span><span data-ref-id=\"73\" style=\"\"><span>System.Concept {\r\n            </span><span><span>codes: </span><span data-ref-id=\"69\" style=\"\"><span><span data-ref-id=\"65\" style=\"\"><span data-ref-id=\"64\" style=\"\"><span><span>concept.coding</span></span></span><span> C</span></span></span><span> </span><span data-ref-id=\"68\" style=\"\"><span>return </span><span data-ref-id=\"67\" style=\"\"><span>ToCode(</span><span data-ref-id=\"66\" style=\"\"><span>C</span></span><span>)</span></span></span></span></span><span>,\r\n            </span><span><span>display: </span><span data-ref-id=\"72\" style=\"\"><span data-ref-id=\"71\" style=\"\"><span data-ref-id=\"70\" style=\"\"><span>concept</span></span><span>.</span><span data-ref-id=\"71\" style=\"\"><span>text</span></span></span><span>.</span><span data-ref-id=\"72\" style=\"\"><span>value</span></span></span></span><span>\r\n        }</span></span></span></span></span></code>\n</pre><pre style=\"tab-size: 2; border-bottom-width: 4px; line-height: 1.4\">\n<code>\n<span data-ref-id=\"79\" style=\"\"><span>define function ToString(value </span><span data-ref-id=\"76\" style=\"\"><span>AccountStatus</span></span><span>): </span><span data-ref-id=\"78\" style=\"\"><span data-ref-id=\"78\" style=\"\"><span data-ref-id=\"77\" style=\"\"><span>value</span></span><span>.</span><span data-ref-id=\"78\" style=\"\"><span>value</span></span></span></span></span></code>\n</pre><pre style=\"tab-size: 2; border-bottom-width: 4px; line-height: 1.4\">\n<code>\n<span data-ref-id=\"1075\" style=\"\"><span>define function ToDate(value </span><span data-ref-id=\"1072\" style=\"\"><span>date</span></span><span>): </span><span data-ref-id=\"1074\" style=\"\"><span data-ref-id=\"1074\" style=\"\"><span data-ref-id=\"1073\" style=\"\"><span>value</span></span><span>.</span><span data-ref-id=\"1074\" style=\"\"><span>value</span></span></span></span></span></code>\n</pre><pre style=\"tab-size: 2; border-bottom-width: 4px; line-height: 1.4\">\n<code>\n<span data-ref-id=\"1091\" style=\"\"><span>define function ToInteger(value </span><span data-ref-id=\"1088\" style=\"\"><span>integer</span></span><span>): </span><span data-ref-id=\"1090\" style=\"\"><span data-ref-id=\"1090\" style=\"\"><span data-ref-id=\"1089\" style=\"\"><span>value</span></span><span>.</span><span data-ref-id=\"1090\" style=\"\"><span>value</span></span></span></span></span></code>\n</pre></div>"},"group":[{"id":"group-1","population":[{"code":{"coding":[{"system":"http://terminology.hl7.org/CodeSystem/measure-population","code":"initial-population","display":"Initial Population"}]},"count":0},{"code":{"coding":[{"system":"http://terminology.hl7.org/CodeSystem/measure-population","code":"numerator","display":"Numerator"}]},"count":0},{"code":{"coding":[{"system":"http://terminology.hl7.org/CodeSystem/measure-population","code":"denominator","display":"Denominator"}]},"count":0},{"code":{"coding":[{"system":"http://terminology.hl7.org/CodeSystem/measure-population","code":"denominator-exclusion","display":"Denominator Exclusion"}]},"count":0},{"code":{"coding":[{"system":"http://terminology.hl7.org/CodeSystem/measure-population","code":"denominator-exception","display":"Denominator Exception"}]},"count":0}],"measureScore":{"value":0}}],"contained":[{"resourceType":"Observation","code":{"text":"sde-ethnicity"},"id":"0eac452c-d692-4996-9e39-b1ac37264068","status":"final","extension":[{"url":"http://hl7.org/fhir/StructureDefinition/cqf-measureInfo","extension":[{"url":"measure","valueCanonical":"http://hl7.org/fhir/us/cqfmeasures/Measure/EXM104"},{"url":"populationId","valueString":"sde-ethnicity"}]}],"valueCodeableConcept":{"coding":[{"system":"urn:oid:2.16.840.1.113883.6.238","code":"2186-5","display":"Not Hispanic or Latino"}]}},{"resourceType":"Observation","code":{"text":"sde-payer"},"id":"9d31e556-62b2-4c56-850f-d6dad20733c0","status":"final","extension":[{"url":"http://hl7.org/fhir/StructureDefinition/cqf-measureInfo","extension":[{"url":"measure","valueCanonical":"http://hl7.org/fhir/us/cqfmeasures/Measure/EXM104"},{"url":"populationId","valueString":"sde-payer"}]}],"valueCodeableConcept":{"coding":[]}},{"resourceType":"Observation","code":{"text":"sde-race"},"id":"5b90a9aa-2099-49b0-88ef-7d9188d85621","status":"final","extension":[{"url":"http://hl7.org/fhir/StructureDefinition/cqf-measureInfo","extension":[{"url":"measure","valueCanonical":"http://hl7.org/fhir/us/cqfmeasures/Measure/EXM104"},{"url":"populationId","valueString":"sde-race"}]}],"valueCodeableConcept":{"coding":[{"system":"urn:oid:2.16.840.1.113883.6.238","code":"2106-3","display":"White"}]}},{"resourceType":"Observation","code":{"text":"sde-sex"},"id":"47c3d3bf-8ce6-43fd-878f-c51bce6aa00e","status":"final","extension":[{"url":"http://hl7.org/fhir/StructureDefinition/cqf-measureInfo","extension":[{"url":"measure","valueCanonical":"http://hl7.org/fhir/us/cqfmeasures/Measure/EXM104"},{"url":"populationId","valueString":"sde-sex"}]}],"valueCodeableConcept":{"coding":[{"system":"http://hl7.org/fhir/v3/AdministrativeGender","code":"M","display":"Male"}]}}],"evaluatedResource":[{"reference":"Patient/8d072c40-042f-4a73-b9e5-ad29cb9f37fa"},{"reference":"#0eac452c-d692-4996-9e39-b1ac37264068"},{"reference":"#9d31e556-62b2-4c56-850f-d6dad20733c0"},{"reference":"#5b90a9aa-2099-49b0-88ef-7d9188d85621"},{"reference":"#47c3d3bf-8ce6-43fd-878f-c51bce6aa00e"}],"subject":{"reference":"Patient/8d072c40-042f-4a73-b9e5-ad29cb9f37fa"}}