{"resourceType":"MeasureReport","contained":[{"resourceType":"List","id":"5cc78d4b-b834-461d-a043-7f0b00f70c6d","entry":[{"item":{"reference":"Patient/893","display":"Ms. Hong136 Schamberger479"}},{"item":{"reference":"Patient/2315","display":"Mr. Vernon254 Dickens475"}},{"item":{"reference":"Patient/1137","display":"Mr. Keenan632 Wolff180"}},{"item":{"reference":"Patient/2105","display":"Ms. Stephenie799 McCullough561"}},{"item":{"reference":"Patient/1301","display":"Mr. Laverne101 Douglas31"}},{"item":{"reference":"Patient/1377","display":"Mr. Lupe126 Ledner144"}},{"item":{"reference":"Patient/1531","display":"Mr. Maynard46 Boyer713"}},{"item":{"reference":"Patient/1663","display":"Ms. Mikaela760 Rosenbaum794"}},{"item":{"reference":"Patient/1211","display":"Ms. Kyoko885 Hahn503"}},{"item":{"reference":"Patient/1695","display":"Ms. Miriam769 Konopelski743"}},{"item":{"reference":"Patient/2025","display":"Ms. Shaun461 Kunze215"}},{"item":{"reference":"Patient/701","display":"Ms. Estela596 Glover433"}},{"item":{"reference":"Patient/725","display":"Ms. Evonne919 Cummings51"}},{"item":{"reference":"Patient/519","display":"Mr. Dario75 Walker122"}}]},{"resourceType":"List","id":"bb060f67-074a-468c-bd0d-2de3aa5a8202","entry":[{"item":{"reference":"Patient/893","display":"Ms. Hong136 Schamberger479"}},{"item":{"reference":"Patient/1137","display":"Mr. Keenan632 Wolff180"}},{"item":{"reference":"Patient/2105","display":"Ms. Stephenie799 McCullough561"}},{"item":{"reference":"Patient/1377","display":"Mr. Lupe126 Ledner144"}},{"item":{"reference":"Patient/1663","display":"Ms. Mikaela760 Rosenbaum794"}},{"item":{"reference":"Patient/1211","display":"Ms. Kyoko885 Hahn503"}},{"item":{"reference":"Patient/1695","display":"Ms. Miriam769 Konopelski743"}},{"item":{"reference":"Patient/2025","display":"Ms. Shaun461 Kunze215"}},{"item":{"reference":"Patient/701","display":"Ms. Estela596 Glover433"}},{"item":{"reference":"Patient/725","display":"Ms. Evonne919 Cummings51"}},{"item":{"reference":"Patient/519","display":"Mr. Dario75 Walker122"}}]},{"resourceType":"List","id":"64649417-f739-4f60-aa21-5aec756346af","entry":[{"item":{"reference":"Patient/893","display":"Ms. Hong136 Schamberger479"}},{"item":{"reference":"Patient/1137","display":"Mr. Keenan632 Wolff180"}},{"item":{"reference":"Patient/2105","display":"Ms. Stephenie799 McCullough561"}},{"item":{"reference":"Patient/1301","display":"Mr. Laverne101 Douglas31"}},{"item":{"reference":"Patient/1377","display":"Mr. Lupe126 Ledner144"}},{"item":{"reference":"Patient/1531","display":"Mr. Maynard46 Boyer713"}},{"item":{"reference":"Patient/1663","display":"Ms. Mikaela760 Rosenbaum794"}},{"item":{"reference":"Patient/1211","display":"Ms. Kyoko885 Hahn503"}},{"item":{"reference":"Patient/1695","display":"Ms. Miriam769 Konopelski743"}},{"item":{"reference":"Patient/2025","display":"Ms. Shaun461 Kunze215"}},{"item":{"reference":"Patient/701","display":"Ms. Estela596 Glover433"}},{"item":{"reference":"Patient/725","display":"Ms. Evonne919 Cummings51"}},{"item":{"reference":"Patient/519","display":"Mr. Dario75 Walker122"}}]},{"resourceType":"List","id":"20b9cfc1-35cf-400b-b9c5-7d90adee7676","entry":[{"item":{"reference":"Patient/2315","display":"Mr. Vernon254 Dickens475"}}]},{"resourceType":"List","id":"99b9f3fa-1a73-42fe-879e-a0fb60ed902b"},{"resourceType":"Observation","id":"9c8b4ddf-62ff-414e-9373-9cb261b1dd1b","extension":[{"url":"http://hl7.org/fhir/StructureDefinition/cqf-measureInfo","extension":[{"url":"measure","valueCanonical":"http://hl7.org/fhir/us/cqfmeasures/Measure/measure-EXM104-8.2.000"},{"url":"populationId","valueString":"sde-race"}]}],"status":"final","code":{"coding":[{"system":"urn:oid:2.16.840.1.113883.6.238","code":"2106-3","display":"White"}]},"valueInteger":86},{"resourceType":"Observation","id":"4fca0d5a-4472-475b-a01b-5e40abaf3904","extension":[{"url":"http://hl7.org/fhir/StructureDefinition/cqf-measureInfo","extension":[{"url":"measure","valueCanonical":"http://hl7.org/fhir/us/cqfmeasures/Measure/measure-EXM104-8.2.000"},{"url":"populationId","valueString":"sde-race"}]}],"status":"final","code":{"coding":[{"system":"urn:oid:2.16.840.1.113883.6.238","code":"1002-5","display":"American Indian or Alaska Native"}]},"valueInteger":1},{"resourceType":"Observation","id":"7937fd05-f5a3-4e87-822a-a48d0a272c80","extension":[{"url":"http://hl7.org/fhir/StructureDefinition/cqf-measureInfo","extension":[{"url":"measure","valueCanonical":"http://hl7.org/fhir/us/cqfmeasures/Measure/measure-EXM104-8.2.000"},{"url":"populationId","valueString":"sde-race"}]}],"status":"final","code":{"coding":[{"system":"urn:oid:2.16.840.1.113883.6.238","code":"2054-5","display":"Black or African American"}]},"valueInteger":6},{"resourceType":"Observation","id":"7167ac7e-e415-42d2-951d-c96fd5102b6c","extension":[{"url":"http://hl7.org/fhir/StructureDefinition/cqf-measureInfo","extension":[{"url":"measure","valueCanonical":"http://hl7.org/fhir/us/cqfmeasures/Measure/measure-EXM104-8.2.000"},{"url":"populationId","valueString":"sde-race"}]}],"status":"final","code":{"coding":[{"system":"urn:oid:2.16.840.1.113883.6.238","code":"2028-9","display":"Asian"}]},"valueInteger":7},{"resourceType":"Observation","id":"25154ec3-613d-4143-ad8d-5fef931120c1","extension":[{"url":"http://hl7.org/fhir/StructureDefinition/cqf-measureInfo","extension":[{"url":"measure","valueCanonical":"http://hl7.org/fhir/us/cqfmeasures/Measure/measure-EXM104-8.2.000"},{"url":"populationId","valueString":"sde-ethnicity"}]}],"status":"final","code":{"coding":[{"system":"urn:oid:2.16.840.1.113883.6.238","code":"2186-5","display":"Not Hispanic or Latino"}]},"valueInteger":93},{"resourceType":"Observation","id":"f1f8bab8-7f03-4122-a59c-1a58532e042b","extension":[{"url":"http://hl7.org/fhir/StructureDefinition/cqf-measureInfo","extension":[{"url":"measure","valueCanonical":"http://hl7.org/fhir/us/cqfmeasures/Measure/measure-EXM104-8.2.000"},{"url":"populationId","valueString":"sde-ethnicity"}]}],"status":"final","code":{"coding":[{"system":"urn:oid:2.16.840.1.113883.6.238","code":"2135-2","display":"Hispanic or Latino"}]},"valueInteger":7},{"resourceType":"Observation","id":"769e1135-aadb-45c7-bf0e-ffde87d2b674","extension":[{"url":"http://hl7.org/fhir/StructureDefinition/cqf-measureInfo","extension":[{"url":"measure","valueCanonical":"http://hl7.org/fhir/us/cqfmeasures/Measure/measure-EXM104-8.2.000"},{"url":"populationId","valueString":"sde-sex"}]}],"status":"final","code":{"coding":[{"code":"F"}]},"valueInteger":53},{"resourceType":"Observation","id":"2100daf3-fc75-4076-a72f-7a5001c64231","extension":[{"url":"http://hl7.org/fhir/StructureDefinition/cqf-measureInfo","extension":[{"url":"measure","valueCanonical":"http://hl7.org/fhir/us/cqfmeasures/Measure/measure-EXM104-8.2.000"},{"url":"populationId","valueString":"sde-sex"}]}],"status":"final","code":{"coding":[{"code":"M"}]},"valueInteger":47}],"status":"complete","type":"subject-list","measure":"Measure/measure-EXM104-8.2.000","period":{"start":"2019-01-01T00:00:00+00:00","end":"2019-12-31T00:00:00+00:00"},"group":[{"id":"group-1","population":[{"code":{"coding":[{"system":"http://terminology.hl7.org/CodeSystem/measure-population","code":"initial-population","display":"Initial Population"}]},"count":20,"subjectResults":{"reference":"#5cc78d4b-b834-461d-a043-7f0b00f70c6d"}},{"code":{"coding":[{"system":"http://terminology.hl7.org/CodeSystem/measure-population","code":"numerator","display":"Numerator"}]},"count":14,"subjectResults":{"reference":"#bb060f67-074a-468c-bd0d-2de3aa5a8202"}},{"code":{"coding":[{"system":"http://terminology.hl7.org/CodeSystem/measure-population","code":"denominator","display":"Denominator"}]},"count":17,"subjectResults":{"reference":"#64649417-f739-4f60-aa21-5aec756346af"}},{"code":{"coding":[{"system":"http://terminology.hl7.org/CodeSystem/measure-population","code":"denominator-exclusion","display":"Denominator Exclusion"}]},"count":0,"subjectResults":{"reference":"#20b9cfc1-35cf-400b-b9c5-7d90adee7676"}},{"code":{"coding":[{"system":"http://terminology.hl7.org/CodeSystem/measure-population","code":"denominator-exception","display":"Denominator Exception"}]},"count":0,"subjectResults":{"reference":"#99b9f3fa-1a73-42fe-879e-a0fb60ed902b"}}],"measureScore":{"value":0.8235294117647058}}],"evaluatedResource":[{"reference":"#9c8b4ddf-62ff-414e-9373-9cb261b1dd1b"},{"reference":"#4fca0d5a-4472-475b-a01b-5e40abaf3904"},{"reference":"#7937fd05-f5a3-4e87-822a-a48d0a272c80"},{"reference":"#7167ac7e-e415-42d2-951d-c96fd5102b6c"},{"reference":"#25154ec3-613d-4143-ad8d-5fef931120c1"},{"reference":"#f1f8bab8-7f03-4122-a59c-1a58532e042b"},{"reference":"#769e1135-aadb-45c7-bf0e-ffde87d2b674"},{"reference":"#2100daf3-fc75-4076-a72f-7a5001c64231"},{"reference":"#Condition/1553"},{"reference":"#Patient/1115"},{"reference":"#Patient/1235"},{"reference":"#Patient/1359"},{"reference":"#MedicationRequest/1416"},{"reference":"#Condition/1317"},{"reference":"#Condition/1559"},{"reference":"#Patient/353"},{"reference":"#Patient/595"},{"reference":"#Patient/473"},{"reference":"#Encounter/1414"},{"reference":"#Encounter/1536"},{"reference":"#Patient/1597"},{"reference":"#Encounter/166"},{"reference":"#Condition/1423"},{"reference":"#MedicationRequest/1408"},{"reference":"#Condition/1669"},{"reference":"#Condition/739"},{"reference":"#Encounter/844"},{"reference":"#Patient/1927"},{"reference":"#Patient/1809"},{"reference":"#MedicationRequest/900"},{"reference":"#Encounter/1406"},{"reference":"#Encounter/1648"},{"reference":"#Patient/461"},{"reference":"#Patient/1483"},{"reference":"#Encounter/1640"},{"reference":"#Patient/1001"},{"reference":"#Encounter/284"},{"reference":"#Patient/105"},{"reference":"#Encounter/2054"},{"reference":"#Encounter/252"},{"reference":"#Encounter/138"},{"reference":"#Encounter/1084"},{"reference":"#Condition/1217"},{"reference":"#Condition/525"},{"reference":"#Condition/533"},{"reference":"#Encounter/1758"},{"reference":"#Patient/571"},{"reference":"#Patient/335"},{"reference":"#Patient/1211"},{"reference":"#Patient/1695"},{"reference":"#Patient/215"},{"reference":"#Encounter/2164"},{"reference":"#Encounter/386"},{"reference":"#Patient/2315"},{"reference":"#Encounter/1076"},{"reference":"#Condition/1687"},{"reference":"#Encounter/2040"},{"reference":"#Encounter/2282"},{"reference":"#Encounter/706"},{"reference":"#Condition/757"},{"reference":"#Patient/1909"},{"reference":"#Patient/443"},{"reference":"#Encounter/1860"},{"reference":"#Patient/689"},{"reference":"#Encounter/260"},{"reference":"#Encounter/2156"},{"reference":"#Encounter/512"},{"reference":"#MedicationRequest/1218"},{"reference":"#Condition/707"},{"reference":"#Encounter/756"},{"reference":"#MedicationRequest/552"},{"reference":"#Encounter/96"},{"reference":"#Patient/793"},{"reference":"#Patient/2081"},{"reference":"#Encounter/1612"},{"reference":"#Patient/1791"},{"reference":"#Patient/317"},{"reference":"#Patient/559"},{"reference":"#Encounter/190"},{"reference":"#Encounter/2388"},{"reference":"#Patient/1567"},{"reference":"#Patient/1329"},{"reference":"#MedicationRequest/1688"},{"reference":"#MedicationRequest/543"},{"reference":"#Encounter/524"},{"reference":"#MedicationRequest/2042"},{"reference":"#MedicationRequest/1560"},{"reference":"#Patient/425"},{"reference":"#Encounter/1960"},{"reference":"#Encounter/2254"},{"reference":"#Patient/1779"},{"reference":"#Encounter/1280"},{"reference":"#Encounter/610"},{"reference":"#Encounter/1160"},{"reference":"#Encounter/850"},{"reference":"#Encounter/730"},{"reference":"#Encounter/738"},{"reference":"#MedicationRequest/1670"},{"reference":"#Condition/731"},{"reference":"#MedicationRequest/2056"},{"reference":"#Patient/893"},{"reference":"#Encounter/1710"},{"reference":"#Patient/2063"},{"reference":"#Patient/1097"},{"reference":"#Patient/1531"},{"reference":"#Encounter/292"},{"reference":"#Encounter/2006"},{"reference":"#Patient/655"},{"reference":"#Encounter/1152"},{"reference":"#Encounter/2120"},{"reference":"#Patient/1301"},{"reference":"#Patient/1429"},{"reference":"#MedicationRequest/526"},{"reference":"#Condition/2331"},{"reference":"#Encounter/1824"},{"reference":"#Patient/2197"},{"reference":"#Encounter/1388"},{"reference":"#Patient/1663"},{"reference":"#Patient/765"},{"reference":"#Encounter/670"},{"reference":"#Encounter/550"},{"reference":"#MedicationRequest/758"},{"reference":"#Encounter/676"},{"reference":"#Condition/1711"},{"reference":"#Patient/519"},{"reference":"#Condition/907"},{"reference":"#Patient/1879"},{"reference":"#Encounter/1382"},{"reference":"#Patient/1519"},{"reference":"#Condition/2121"},{"reference":"#Condition/1153"},{"reference":"#Patient/197"},{"reference":"#Patient/1193"},{"reference":"#Patient/637"},{"reference":"#Patient/1991"},{"reference":"#Patient/875"},{"reference":"#Encounter/1016"},{"reference":"#Encounter/1130"},{"reference":"#Condition/1389"},{"reference":"#Patient/1767"},{"reference":"#Encounter/1250"},{"reference":"#MedicationRequest/740"},{"reference":"#Condition/1383"},{"reference":"#MedicationRequest/2122"},{"reference":"#Patient/2297"},{"reference":"#Patient/625"},{"reference":"#Patient/989"},{"reference":"#Patient/2179"},{"reference":"#Encounter/2212"},{"reference":"#Patient/1973"},{"reference":"#Encounter/2330"},{"reference":"#Encounter/410"},{"reference":"#Encounter/532"},{"reference":"#Encounter/898"},{"reference":"#MedicationRequest/732"},{"reference":"#Patient/299"},{"reference":"#Patient/175"},{"reference":"#Patient/977"},{"reference":"#Patient/1175"},{"reference":"#Patient/857"},{"reference":"#Patient/2141"},{"reference":"#Patient/2025"},{"reference":"#Patient/2267"},{"reference":"#Encounter/1350"},{"reference":"#Patient/1501"},{"reference":"#Patient/1743"},{"reference":"#Encounter/1474"},{"reference":"#Encounter/786"},{"reference":"#Patient/1625"},{"reference":"#Patient/1867"},{"reference":"#Condition/1161"},{"reference":"#Patient/1061"},{"reference":"#Patient/725"},{"reference":"#Encounter/1900"},{"reference":"#Encounter/1344"},{"reference":"#Encounter/1466"},{"reference":"#Encounter/1588"},{"reference":"#Patient/2129"},{"reference":"#Encounter/1582"},{"reference":"#Encounter/230"},{"reference":"#Patient/959"},{"reference":"#Patient/1839"},{"reference":"#Condition/2041"},{"reference":"#Encounter/906"},{"reference":"#Patient/395"},{"reference":"#Condition/551"},{"reference":"#Patient/151"},{"reference":"#Encounter/1216"},{"reference":"#Encounter/1458"},{"reference":"#Patient/2361"},{"reference":"#Encounter/244"},{"reference":"#MedicationRequest/708"},{"reference":"#Patient/1725"},{"reference":"#Condition/899"},{"reference":"#MedicationRequest/1162"},{"reference":"#Encounter/2418"},{"reference":"#Patient/2373"},{"reference":"#Patient/823"},{"reference":"#Patient/1043"},{"reference":"#Patient/701"},{"reference":"#Patient/269"},{"reference":"#Patient/1289"},{"reference":"#Encounter/1444"},{"reference":"#Encounter/1686"},{"reference":"#Patient/941"},{"reference":"#Patient/2013"},{"reference":"#Patient/1137"},{"reference":"#Patient/2105"},{"reference":"#Patient/1259"},{"reference":"#Condition/1537"},{"reference":"#Encounter/2096"},{"reference":"#MedicationRequest/1712"},{"reference":"#Condition/1415"},{"reference":"#Encounter/576"},{"reference":"#MedicationRequest/1399"},{"reference":"#MedicationRequest/1154"},{"reference":"#Patient/371"},{"reference":"#Condition/1407"},{"reference":"#Encounter/1316"},{"reference":"#Encounter/1558"},{"reference":"#Encounter/1552"},{"reference":"#Patient/2221"},{"reference":"#Patient/1377"},{"reference":"#Patient/2343"},{"reference":"#Patient/2239"},{"reference":"#Patient/805"},{"reference":"#Patient/1945"},{"reference":"#Patient/491"},{"reference":"#Condition/2055"},{"reference":"#Patient/123"},{"reference":"#Encounter/1668"},{"reference":"#Patient/923"},{"reference":"#Patient/1025"},{"reference":"#Encounter/1422"},{"reference":"#Patient/81"}]}